aX,aY,aZ,gX,gY,gZ
0.072,-0.143,2.575,73.364,-23.071,-0.793
-0.054,-0.080,2.723,103.699,-18.921,-3.967
-0.161,-0.163,2.681,145.813,-7.202,6.104
-0.222,-0.298,2.426,187.012,0.061,22.095
-0.113,-0.356,2.286,216.980,10.315,35.034
-0.068,-0.466,2.145,231.689,15.381,43.091
-0.013,-0.578,2.206,234.619,23.621,41.626
-0.010,-0.586,2.379,229.126,29.480,34.180
0.017,-0.501,2.532,223.633,37.842,25.696
0.011,-0.444,2.574,237.305,47.729,21.484
0.018,-0.373,2.468,263.855,53.894,21.790
0.028,-0.352,2.306,285.767,56.274,23.315
-0.084,-0.321,2.159,298.584,63.904,28.259
-0.183,-0.160,1.923,312.927,81.299,35.767
-0.212,0.009,1.555,341.553,104.309,49.011
-0.088,0.110,1.111,373.230,124.390,68.237
0.069,0.142,0.722,397.339,130.432,78.369
0.243,0.176,0.423,409.668,110.229,76.660
0.341,0.100,0.303,405.701,73.120,67.566
0.249,0.004,0.238,381.042,35.095,49.255
0.125,-0.013,0.270,352.051,16.785,35.889
0.094,0.081,0.351,330.750,19.348,30.884
0.054,0.167,0.379,317.627,29.480,31.067
-0.018,0.272,0.276,313.965,40.649,36.133
-0.073,0.333,0.046,318.726,57.373,46.204
-0.055,0.355,-0.220,323.547,79.529,57.007
0.095,0.357,-0.401,323.853,97.229,66.223
0.177,0.424,-0.549,314.514,101.929,69.885
0.324,0.466,-0.753,300.476,100.098,65.918
0.250,0.444,-0.950,286.011,96.008,55.664
0.106,0.414,-1.164,269.104,87.219,44.312
0.045,0.420,-1.425,255.066,83.008,37.720
-0.067,0.467,-1.720,242.249,77.515,34.607
-0.158,0.468,-2.054,224.182,65.674,32.837
-0.241,0.427,-2.396,196.106,54.504,33.691
-0.266,0.402,-2.649,157.898,46.143,34.180
-0.140,0.384,-2.792,112.061,34.241,29.297
-0.112,0.348,-2.808,61.340,14.221,18.799
-0.150,0.287,-2.694,8.789,-9.277,5.127
-0.170,0.214,-2.500,-39.978,-26.184,-5.005
-0.130,0.097,-2.231,-86.975,-32.349,-8.484
-0.047,-0.000,-1.923,-129.578,-32.837,-7.874
0.024,-0.069,-1.639,-165.222,-34.729,-6.409
0.067,-0.119,-1.400,-193.909,-38.818,-4.944
0.112,-0.132,-1.171,-217.041,-40.527,-3.235
0.140,-0.127,-0.971,-233.215,-39.490,-1.160
0.155,-0.142,-0.816,-241.699,-38.635,0.488
0.191,-0.150,-0.699,-243.958,-40.588,2.869
0.206,-0.161,-0.621,-243.347,-44.678,5.554
0.211,-0.163,-0.554,-242.920,-47.424,5.981
0.270,-0.160,-0.485,-244.995,-47.180,3.113
0.343,-0.201,-0.357,-250.122,-44.189,-2.991
0.350,-0.198,-0.184,-258.362,-44.006,-13.855
0.323,-0.260,-0.037,-263.550,-44.678,-22.461
0.334,-0.284,0.113,-265.259,-42.236,-27.222
0.380,-0.328,0.260,-264.587,-41.809,-25.330
0.389,-0.355,0.365,-262.085,-48.401,-24.231
0.367,-0.373,0.432,-255.371,-64.026,-25.879
0.275,-0.376,0.481,-246.887,-78.857,-29.358
0.167,-0.495,0.644,-241.882,-77.209,-31.738
0.054,-0.539,0.861,-241.211,-55.420,-32.288
0.094,-0.525,1.109,-239.075,-22.888,-25.696
0.214,-0.453,1.291,-231.506,9.033,-13.123
0.314,-0.394,1.350,-212.830,26.550,-2.319
0.403,-0.395,1.251,-185.120,28.564,4.883
0.468,-0.516,1.106,-160.339,20.752,6.165
0.516,-0.618,0.999,-147.461,11.292,7.202
0.582,-0.469,0.846,-148.804,-23.743,-8.362
0.549,-0.423,0.959,-160.889,-64.148,-14.221
0.478,-0.445,1.105,-178.101,-85.144,-25.269
0.335,-0.562,1.364,-188.293,-90.637,-37.964
0.181,-0.564,1.617,-186.890,-82.703,-50.964
0.056,-0.510,1.734,-168.823,-63.354,-49.927
0.004,-0.526,1.692,-135.437,-28.442,-33.142
0.083,-0.581,1.505,-97.839,7.202,-12.451
0.160,-0.592,1.261,-68.176,27.283,3.540
0.276,-0.598,1.040,-52.734,28.564,9.155
0.350,-0.625,0.917,-51.392,11.902,3.967
0.311,-0.643,0.883,-62.744,-17.456,-6.531
0.199,-0.613,0.924,-80.566,-48.584,-19.165
0.116,-0.573,1.002,-98.450,-63.171,-28.015
0.057,-0.577,1.092,-112.000,-56.702,-31.128
0.020,-0.599,1.163,-118.469,-39.063,-29.724
0.049,-0.599,1.224,-115.967,-17.395,-23.804
0.083,-0.563,1.185,-102.478,-1.953,-15.930
0.124,-0.548,1.097,-81.299,2.441,-7.935
0.158,-0.552,0.974,-61.646,-2.258,-1.709
0.178,-0.532,0.886,-48.950,-12.756,1.404
0.186,-0.499,0.839,-45.898,-25.940,-0.122
0.181,-0.491,0.856,-49.866,-35.217,-3.906
0.151,-0.496,0.919,-59.631,-35.461,-7.507
0.153,-0.495,0.995,-69.214,-25.513,-10.315
0.160,-0.500,1.096,-72.998,-16.113,-11.475
0.142,-0.471,1.160,-69.519,-12.085,-11.719
0.111,-0.471,1.180,-57.556,-12.390,-9.521
0.083,-0.479,1.145,-41.748,-13.306,-4.883
0.069,-0.487,1.076,-26.001,-13.367,-0.427
0.031,-0.483,0.991,-15.076,-16.724,3.784
0.016,-0.476,0.925,-10.437,-19.409,7.996
0.067,-0.423,0.916,-10.742,-17.273,11.902
0.095,-0.457,0.895,-16.296,-12.390,10.010
0.123,-0.479,0.942,-26.672,-5.615,3.784
0.175,-0.468,1.031,-36.194,-3.723,0.122
0.188,-0.444,1.108,-39.856,-9.583,-3.723
0.150,-0.442,1.148,-37.476,-19.287,-7.080
0.108,-0.473,1.175,-31.128,-24.048,-8.972
0.076,-0.485,1.183,-23.987,-21.973,-8.240
0.058,-0.469,1.141,-15.381,-16.418,-4.395
0.061,-0.468,1.062,-5.981,-8.789,2.014
0.097,-0.464,0.974,0.793,0.000,7.996
0.133,-0.453,0.905,2.930,7.141,9.888
0.162,-0.443,0.877,0.427,10.437,8.118
0.185,-0.443,0.891,-5.188,11.230,4.517
0.180,-0.430,0.941,-10.254,6.897,-0.122
0.149,-0.407,0.983,-11.475,-0.732,-3.845
0.087,-0.406,0.993,-9.033,-6.592,-5.249
0.046,-0.438,1.013,-6.165,-6.897,-3.906
0.054,-0.410,1.036,-3.662,-3.479,-1.160
0.072,-0.376,1.042,0.488,-2.930,2.808
0.114,-0.333,2.747,72.998,7.202,-10.986
0.118,-0.325,3.430,84.656,20.691,-13.916
0.145,-0.184,4.000,103.882,28.198,-14.954
0.207,-0.000,4.000,147.522,28.809,-11.597
0.195,0.075,4.000,227.905,21.240,-2.380
0.008,-0.041,4.000,317.627,13.367,11.108
-0.178,-0.103,3.804,385.071,21.301,23.254
-0.369,-0.132,3.157,428.406,35.034,36.865
-0.393,-0.136,2.566,456.177,59.509,55.847
-0.328,-0.076,2.116,464.050,83.252,72.632
-0.221,0.082,1.669,473.267,94.421,80.994
-0.186,0.288,1.167,489.624,85.938,81.177
-0.164,0.417,0.676,501.770,62.866,81.360
-0.295,0.496,0.241,503.235,39.551,82.336
-0.261,0.497,-0.057,494.446,24.109,89.478
-0.135,0.520,-0.204,471.069,24.780,99.487
-0.006,0.635,-0.267,439.148,31.006,98.511
0.110,0.734,-0.354,414.368,30.945,91.125
0.141,0.787,-0.425,393.372,27.832,84.839
0.108,0.811,-0.546,373.779,26.550,80.444
0.103,0.781,-0.665,354.553,32.410,79.041
0.049,0.797,-0.828,333.496,44.250,77.759
0.159,0.807,-0.996,315.063,56.824,75.134
0.176,0.818,-1.162,295.959,64.453,64.880
0.079,0.810,-1.347,275.391,62.500,49.316
-0.068,0.749,-1.557,253.906,59.753,41.016
-0.218,0.655,-1.697,228.027,67.261,45.105
-0.259,0.562,-1.809,197.754,85.449,56.213
-0.026,0.503,-1.898,173.096,102.356,64.636
0.089,0.521,-1.984,156.799,84.656,56.152
0.080,0.538,-2.220,141.174,29.846,39.856
0.071,0.510,-2.537,114.929,-18.250,27.771
0.082,0.360,-2.743,68.054,-36.987,18.494
0.130,0.275,-2.725,-0.427,-35.522,5.920
0.162,0.350,-2.512,-74.341,-29.663,-7.019
0.224,0.423,-2.251,-134.521,-27.100,-15.686
0.316,0.458,-1.972,-177.795,-24.048,-19.531
0.393,0.420,-1.670,-207.092,-22.888,-24.048
0.356,0.321,-1.464,-225.098,-35.217,-30.823
0.290,0.181,-1.223,-236.084,-43.945,-36.804
0.170,0.056,-1.028,-243.347,-44.861,-38.330
0.099,-0.048,-0.849,-246.033,-36.377,-33.875
0.049,-0.123,-0.686,-249.451,-21.912,-23.926
0.114,-0.184,-0.505,-255.249,-3.113,-12.939
0.243,-0.216,-0.358,-257.935,10.803,-4.944
0.396,-0.257,-0.226,-257.690,7.812,-3.418
0.428,-0.285,-0.180,-258.118,-10.315,-10.742
0.280,-0.389,-0.107,-262.512,-32.776,-22.644
-0.012,-0.598,0.278,-274.841,-39.734,-29.480
-0.160,-0.578,0.749,-282.837,-24.048,-27.344
-0.136,-0.593,1.101,-259.888,-0.183,-4.211
0.104,-0.633,1.290,-214.417,14.465,28.381
0.394,-0.742,1.352,-170.105,5.371,53.162
0.618,-0.746,1.307,-143.066,-16.907,60.547
0.770,-0.717,1.139,-129.578,-38.269,45.288
0.679,-0.795,0.893,-127.258,-48.218,16.663
0.518,-0.919,0.673,-140.564,-46.814,-8.057
0.320,-1.022,0.699,-166.992,-37.659,-23.071
0.121,-0.980,1.010,-196.533,-14.343,-27.649
0.056,-0.693,1.221,-201.172,18.433,-19.470
0.299,-0.807,1.360,-172.119,36.560,-0.061
0.492,-0.796,1.292,-133.545,22.278,5.798
0.508,-0.754,1.241,-103.027,-5.249,11.353
0.483,-0.714,1.153,-82.703,-36.194,10.315
0.448,-0.821,1.009,-68.726,-49.438,3.967
0.373,-0.889,0.848,-66.040,-44.983,-5.493
0.290,-0.875,0.721,-74.158,-32.288,-9.766
0.277,-0.866,0.677,-86.365,-15.137,-6.836
0.315,-0.861,0.711,-96.130,1.282,-3.479
0.247,-0.836,0.766,-97.778,3.418,-4.883
0.248,-0.784,0.777,-86.243,0.610,-7.385
0.250,-0.802,0.689,-68.542,-7.629,-5.249
0.277,-0.826,0.626,-57.068,-26.123,-2.563
0.273,-0.777,0.593,-53.528,-44.250,-3.479
0.267,-0.737,0.552,-52.490,-57.800,-6.165
0.237,-0.734,0.504,-54.565,-61.768,-8.240
0.217,-0.761,0.481,-64.270,-52.307,-8.362
0.256,-0.768,0.515,-79.956,-33.630,-7.629
0.303,-0.726,0.590,-96.252,-18.677,-7.568
0.326,-0.680,0.659,-106.750,-14.648,-9.460
0.309,-0.651,0.708,-109.131,-17.029,-14.038
0.291,-0.651,0.766,-104.248,-22.949,-20.447
0.263,-0.642,0.791,-95.215,-34.790,-25.269
0.205,-0.639,0.781,-84.534,-51.514,-26.917
0.142,-0.641,0.755,-75.134,-64.575,-25.696
0.095,-0.653,0.748,-69.641,-66.528,-20.874
0.101,-0.633,0.755,-68.359,-58.594,-14.160
0.145,-0.597,0.763,-68.054,-48.157,-7.812
0.187,-0.585,0.750,-68.787,-40.833,-4.395
0.202,-0.596,0.734,-71.594,-35.950,-4.395
0.235,-0.587,0.760,-75.562,-32.654,-7.202
0.245,-0.544,0.802,-77.026,-33.630,-14.954
0.202,-0.544,0.841,-74.829,-41.687,-24.109
0.092,-0.562,0.881,-73.792,-49.500,-30.518
0.009,-0.565,0.927,-74.158,-46.509,-31.616
0.014,-0.560,0.983,-71.899,-32.227,-26.550
0.068,-0.561,1.019,-64.697,-17.151,-18.311
0.110,-0.553,1.018,-54.382,-8.606,-10.376
0.142,-0.539,0.986,-41.748,-6.409,-5.737
0.173,-0.525,0.935,-30.518,-10.071,-4.578
0.162,-0.524,0.878,-25.330,-16.785,-6.165
0.130,-0.541,0.849,-26.245,-19.165,-9.460
0.119,-0.541,0.859,-30.884,-15.198,-15.015
0.079,-0.536,0.893,-36.316,-13.428,-18.921
0.024,-0.533,0.922,-40.894,-11.047,-17.395
0.025,-0.537,0.979,-42.786,-2.563,-12.390
0.072,-0.531,1.034,-42.175,7.263,-7.019
0.092,-0.509,1.074,-37.170,10.986,-3.967
0.095,-0.505,1.086,-27.527,7.385,-2.075
0.062,-0.507,1.064,-15.869,0.366,-0.488
0.027,-0.512,1.012,-5.676,-5.493,2.502
0.025,-0.501,0.960,1.160,-8.179,6.287
0.032,-0.497,0.907,2.502,-8.423,8.545
0.105,-0.497,0.936,-1.099,-6.104,8.728
0.052,-0.499,0.836,-6.897,-7.324,6.897
0.060,-0.522,0.850,-12.695,-1.587,5.127
0.082,-0.512,0.871,-17.029,1.953,3.601
0.094,-0.493,0.901,-18.982,3.052,2.502
0.072,-0.481,0.912,-17.761,3.540,0.549
-0.057,-0.507,2.460,95.947,5.554,-4.211
-0.221,-0.594,2.876,104.065,11.292,-3.540
-0.348,-0.607,3.301,121.826,32.166,5.737
-0.248,-0.467,3.461,169.250,61.890,25.208
-0.068,-0.431,3.339,239.807,82.336,42.419
-0.083,-0.497,2.935,299.194,75.317,51.453
-0.214,-0.556,2.379,342.834,54.626,59.875
-0.141,-0.556,1.981,368.286,47.119,64.575
-0.165,-0.656,1.677,365.784,45.349,67.932
-0.166,-0.642,1.501,346.191,53.833,69.397
-0.015,-0.551,1.428,332.031,60.364,66.895
0.000,-0.551,1.454,317.505,58.350,60.364
-0.094,-0.469,1.493,304.565,58.044,55.969
-0.101,-0.325,1.470,309.753,62.866,59.875
-0.083,-0.153,1.244,327.576,68.359,69.031
-0.034,-0.006,0.919,348.816,75.623,81.177
0.066,0.129,0.538,367.004,77.759,89.600
0.265,0.128,0.241,375.610,70.740,89.539
0.337,0.136,0.043,364.502,51.514,73.975
0.254,0.172,-0.007,341.736,27.405,59.326
0.223,0.222,-0.002,318.604,21.057,50.537
0.205,0.262,-0.030,301.270,28.015,45.593
0.178,0.288,-0.064,292.053,40.039,43.579
0.085,0.366,-0.158,286.438,52.673,45.410
0.109,0.409,-0.251,286.987,67.932,51.270
0.098,0.484,-0.383,289.307,81.238,54.688
0.107,0.512,-0.558,291.260,83.923,55.054
0.097,0.447,-0.731,285.461,82.275,55.420
0.001,0.398,-0.931,269.775,81.055,54.138
0.018,0.426,-1.136,252.686,82.336,52.368
0.046,0.494,-1.372,238.892,80.933,49.622
0.083,0.536,-1.625,226.746,65.796,43.762
-0.001,0.499,-1.895,207.886,41.199,36.316
-0.119,0.445,-2.082,173.279,27.771,28.870
-0.172,0.365,-2.174,128.601,33.325,24.841
-0.040,0.318,-2.148,85.510,42.542,26.428
0.068,0.316,-2.097,50.476,36.804,23.926
0.075,0.275,-2.086,22.339,10.559,13.306
0.049,0.184,-2.075,-7.202,-13.245,5.310
0.064,0.116,-2.020,-42.175,-20.203,3.967
0.147,0.105,-1.916,-79.102,-18.372,5.310
0.296,0.140,-1.767,-112.000,-18.311,4.211
0.401,0.190,-1.648,-135.010,-25.330,-4.700
0.367,0.172,-1.607,-149.658,-44.312,-20.142
0.225,0.076,-1.574,-164.795,-60.486,-34.058
0.023,0.026,-1.467,-186.462,-59.875,-39.124
-0.034,0.018,-1.273,-209.229,-41.687,-34.485
-0.013,-0.009,-1.066,-226.746,-18.860,-22.766
0.069,-0.061,-0.894,-239.502,-3.662,-12.085
0.225,-0.129,-0.740,-248.047,2.197,-8.179
0.324,-0.174,-0.589,-254.211,-4.578,-13.062
0.404,-0.160,-0.455,-259.338,-26.001,-25.391
0.348,-0.204,-0.385,-264.404,-57.007,-36.926
0.117,-0.308,-0.234,-274.536,-76.538,-46.570
-0.100,-0.388,-0.020,-288.574,-70.007,-49.988
-0.160,-0.470,0.312,-294.739,-40.039,-38.208
-0.152,-0.480,0.639,-286.377,-1.099,-14.526
-0.031,-0.435,0.836,-255.493,28.015,11.230
0.189,-0.357,0.823,-207.275,29.663,34.241
0.420,-0.452,0.681,-164.551,7.080,47.791
0.556,-0.526,0.541,-145.020,-26.428,42.847
0.486,-0.580,0.397,-146.973,-57.678,23.560
0.263,-0.658,0.317,-169.800,-72.998,5.676
0.212,-0.768,0.435,-209.534,-52.063,-3.052
0.257,-0.797,0.844,-250.732,-16.052,-6.592
0.333,-0.692,1.405,-273.743,7.996,-7.751
0.418,-0.546,1.796,-259.399,11.536,-6.226
0.482,-0.448,1.891,-209.839,-6.531,-5.493
0.366,-0.409,1.749,-149.658,-34.973,-2.258
0.359,-0.764,1.471,-104.431,-55.847,5.676
0.326,-0.742,1.101,-85.632,-64.758,2.808
0.307,-0.896,1.016,-90.027,-37.964,14.587
0.384,-0.940,0.999,-110.168,-9.949,16.602
0.525,-0.895,1.118,-127.441,10.681,7.690
0.529,-0.859,1.314,-132.080,0.000,-4.639
0.415,-0.793,1.423,-117.920,-24.048,-17.517
0.265,-0.804,1.381,-89.600,-50.415,-26.184
0.095,-0.857,1.245,-62.805,-59.753,-23.621
0.037,-0.852,1.116,-47.607,-46.753,-11.719
0.125,-0.800,0.995,-41.260,-22.034,1.953
0.206,-0.792,0.863,-39.429,-2.075,9.827
0.233,-0.796,0.726,-40.833,7.202,10.315
0.219,-0.761,0.608,-45.105,8.972,9.583
0.314,-0.732,0.550,-49.805,9.460,10.132
0.449,-0.695,0.562,-54.443,1.953,5.737
0.458,-0.645,0.560,-59.326,-22.461,-7.202
0.323,-0.672,0.568,-64.697,-51.636,-23.193
0.130,-0.747,0.679,-73.914,-66.284,-33.020
0.008,-0.715,0.847,-84.412,-57.007,-32.227
0.015,-0.653,0.970,-84.961,-32.593,-20.569
0.095,-0.612,0.996,-73.364,-7.629,-4.700
0.175,-0.570,0.914,-55.908,7.874,7.080
0.244,-0.595,0.794,-41.077,13.489,13.306
0.319,-0.590,0.709,-35.767,12.207,13.550
0.353,-0.573,0.656,-38.696,1.892,7.202
0.332,-0.565,0.631,-45.105,-11.047,-2.625
0.281,-0.574,0.643,-53.772,-24.048,-10.986
0.248,-0.573,0.712,-66.223,-29.724,-18.799
0.229,-0.579,0.820,-77.637,-26.611,-25.330
0.193,-0.571,0.939,-81.848,-21.118,-29.297
0.093,-0.547,1.000,-75.684,-20.264,-29.175
0.111,-0.561,1.068,-62.683,-21.912,-25.085
0.060,-0.553,1.039,-47.363,-26.367,-18.066
0.087,-0.581,1.017,-32.471,-19.409,-9.094
0.104,-0.561,0.984,-22.522,-18.616,-3.540
0.138,-0.524,0.934,-15.442,-18.982,0.305
0.154,-0.555,0.893,-12.756,-18.799,0.305
0.117,-0.596,0.884,-16.235,-15.991,-1.770
0.089,-0.608,0.907,-22.522,-8.972,-2.075
0.099,-0.624,0.976,-26.672,-0.977,-0.793
0.122,-0.597,1.031,-24.963,4.150,0.732
0.116,-0.573,1.041,-17.151,2.686,3.296
0.112,-0.579,1.008,-6.958,-1.465,6.958
0.118,-0.556,0.963,1.892,-3.967,10.803
0.136,-0.563,0.912,7.385,-4.944,13.489
0.152,-0.565,0.880,7.629,-3.418,14.160
0.186,-0.563,0.862,5.127,-2.136,12.756
0.187,-0.577,0.841,2.136,-2.930,10.193
0.171,-0.584,0.852,-2.686,-2.930,7.690
0.131,-0.570,2.675,27.710,-6.958,-15.198
0.047,-0.581,3.209,46.997,2.319,-17.151
-0.046,-0.564,3.684,79.468,15.747,-11.353
-0.094,-0.613,3.871,130.371,33.142,6.348
-0.146,-0.651,3.712,205.750,44.128,29.419
-0.120,-0.646,3.261,281.006,43.030,48.767
-0.193,-0.619,2.736,342.896,25.940,65.369
-0.145,-0.580,2.317,379.272,17.578,73.181
-0.246,-0.507,1.964,389.038,6.653,77.942
-0.196,-0.479,1.693,388.550,10.620,84.717
-0.164,-0.468,1.498,377.197,22.461,88.379
-0.074,-0.375,1.390,361.145,39.856,88.501
0.036,-0.300,1.307,349.243,50.842,86.975
0.127,-0.296,1.230,343.140,48.462,84.412
0.096,-0.227,1.179,339.661,44.006,80.505
0.049,-0.005,1.011,341.370,46.326,78.369
0.035,0.118,0.693,350.464,54.504,82.214
0.042,0.138,0.380,356.140,70.496,90.637
0.250,0.191,0.201,350.281,91.187,90.881
0.333,0.329,0.134,335.022,102.051,86.304
0.345,0.529,-0.027,326.172,102.905,77.637
0.416,0.607,-0.203,327.698,101.563,66.772
0.506,0.667,-0.353,330.566,96.191,49.988
0.405,0.745,-0.538,327.148,76.721,27.161
0.168,0.771,-0.777,324.097,55.542,9.094
-0.075,0.787,-1.042,316.833,45.593,6.592
-0.309,0.765,-1.345,300.598,57.190,23.193
-0.357,0.753,-1.655,278.625,88.196,54.504
-0.134,0.815,-1.946,252.380,125.244,83.740
0.201,0.854,-2.173,223.267,142.212,93.384
0.334,0.836,-2.361,191.040,123.962,76.172
0.235,0.763,-2.496,155.151,78.125,41.748
0.008,0.607,-2.537,113.220,33.875,8.789
-0.253,0.436,-2.482,66.528,11.658,-10.376
-0.343,0.318,-2.324,21.667,6.775,-16.174
-0.333,0.193,-2.086,-18.066,2.563,-12.512
-0.219,0.077,-1.825,-52.551,-6.042,-4.211
-0.099,-0.035,-1.573,-81.543,-13.916,3.113
0.037,-0.145,-1.326,-104.858,-18.799,8.545
0.153,-0.205,-1.147,-120.544,-24.414,12.878
0.285,-0.262,-1.001,-131.104,-30.029,13.672
0.347,-0.335,-0.839,-139.587,-32.593,9.399
0.368,-0.381,-0.694,-145.142,-32.410,2.869
0.372,-0.376,-0.617,-143.311,-32.776,-0.610
0.368,-0.370,-0.635,-135.742,-36.377,0.244
0.376,-0.384,-0.711,-128.235,-39.063,3.296
0.371,-0.383,-0.816,-126.221,-39.307,6.592
0.369,-0.380,-0.913,-131.897,-36.987,8.667
0.355,-0.398,-0.942,-145.813,-30.945,8.179
0.349,-0.426,-0.845,-168.152,-21.118,4.456
0.351,-0.444,-0.624,-192.749,-7.141,2.380
0.391,-0.460,-0.319,-210.022,3.357,-1.221
0.395,-0.478,-0.051,-212.402,3.906,-7.812
0.389,-0.518,0.133,-199.646,-6.104,-11.414
0.323,-0.582,0.223,-179.504,-18.555,-9.094
0.318,-0.604,0.198,-158.264,-26.489,-4.883
0.329,-0.697,0.049,-143.982,-26.733,-0.854
0.397,-0.771,-0.045,-147.034,-17.090,0.977
0.443,-0.836,0.006,-164.307,-8.484,-1.648
0.367,-0.893,0.212,-188.538,-6.226,-7.507
0.296,-0.832,0.505,-204.102,-0.366,-13.489
0.281,-0.797,0.741,-196.716,3.357,-12.085
0.304,-0.763,0.815,-167.603,-0.916,-5.798
0.293,-0.758,0.709,-130.798,-13.672,2.075
0.307,-0.787,0.533,-101.746,-29.663,11.108
0.449,-0.729,0.370,-84.839,-43.701,15.625
0.554,-0.712,0.186,-83.984,-56.641,8.362
0.482,-0.782,0.053,-101.685,-59.631,-6.226
0.339,-0.757,0.028,-131.653,-54.077,-19.409
0.264,-0.725,0.101,-164.307,-42.664,-24.719
0.240,-0.725,0.291,-191.223,-23.437,-23.926
0.367,-0.653,0.578,-206.665,-9.827,-25.574
0.426,-0.526,0.770,-202.759,-16.235,-34.424
0.381,-0.549,0.805,-181.091,-44.678,-44.006
0.267,-0.605,0.759,-158.386,-76.050,-50.415
0.199,-0.754,0.704,-145.325,-94.849,-50.903
0.122,-0.687,0.658,-141.907,-98.083,-51.575
0.164,-0.575,0.634,-142.578,-96.924,-51.636
0.043,-0.626,0.543,-142.090,-91.064,-34.302
0.187,-0.706,0.568,-148.193,-67.017,-24.292
0.320,-0.627,0.736,-163.635,-58.411,-27.344
0.425,-0.506,0.905,-174.255,-61.768,-39.246
0.372,-0.475,1.013,-167.725,-85.266,-58.472
0.166,-0.558,1.025,-150.574,-115.845,-74.341
-0.177,-0.654,1.028,-135.010,-127.625,-76.904
-0.387,-0.747,1.094,-124.268,-101.746,-61.218
-0.390,-0.750,1.156,-114.197,-45.166,-32.410
-0.240,-0.684,1.191,-100.403,13.550,-0.854
0.004,-0.615,1.132,-81.970,53.162,23.926
0.260,-0.561,1.033,-63.477,61.401,33.997
0.405,-0.546,0.933,-52.734,36.987,27.283
0.360,-0.584,0.876,-55.115,-2.075,9.338
0.269,-0.589,0.946,-67.261,-35.278,-10.803
0.103,-0.615,0.998,-81.360,-52.429,-28.198
-0.010,-0.668,1.139,-92.163,-46.814,-38.635
-0.076,-0.701,1.281,-95.764,-28.931,-36.011
-0.106,-0.667,1.350,-85.205,-7.324,-23.071
-0.059,-0.625,1.292,-59.998,12.024,-5.371
0.060,-0.602,1.166,-32.959,24.719,11.780
0.127,-0.589,1.031,-12.329,22.705,22.095
0.195,-0.553,0.915,-0.061,6.836,23.254
0.233,-0.537,0.816,5.127,-7.385,16.663
0.213,-0.598,0.740,2.869,-18.311,5.737
0.122,-0.672,0.719,-9.216,-24.231,-4.211
0.070,-0.671,0.802,-29.053,-21.606,-9.338
0.045,-0.607,0.913,-45.105,-11.353,-10.132
0.059,-0.587,0.991,-48.340,0.488,-7.080
0.090,-0.595,1.051,-42.236,9.399,-3.052
0.132,-0.554,1.076,-30.762,11.230,-0.366
0.122,-0.551,1.046,-15.015,2.014,1.831
0.077,-0.571,0.989,-0.671,-8.789,4.822
0.047,-0.584,0.942,8.240,-13.977,8.789
0.046,-0.582,0.905,11.230,-12.207,13.184
0.081,-0.587,0.878,9.583,-3.845,16.418
0.112,-0.592,0.856,5.615,7.263,17.822
0.143,-0.583,0.854,0.000,14.221,17.761
0.168,-0.580,0.871,-5.310,13.794,16.296
0.187,-0.549,0.915,-9.277,10.681,11.963
0.163,-0.531,0.935,-9.399,6.104,5.920
-0.099,-0.585,2.784,59.082,-7.324,-0.244
-0.085,-0.628,3.196,86.792,9.460,8.179
-0.029,-0.656,3.594,117.432,28.503,15.320
-0.089,-0.655,3.734,156.616,37.170,20.691
-0.210,-0.651,3.548,216.675,37.292,28.809
-0.321,-0.681,3.106,285.095,36.316,44.006
-0.304,-0.696,2.592,334.900,40.283,64.026
-0.303,-0.642,2.197,356.567,48.279,80.811
-0.185,-0.583,1.881,361.084,60.730,88.562
-0.120,-0.524,1.734,354.431,64.392,89.844
0.013,-0.364,1.569,348.755,69.092,85.266
0.106,-0.311,1.422,352.356,65.735,76.782
0.019,-0.241,1.243,354.675,54.871,70.190
-0.056,-0.159,1.081,357.239,53.528,70.496
-0.142,-0.013,0.889,361.206,66.589,78.552
-0.006,0.081,0.666,367.187,85.449,92.407
0.166,0.089,0.470,366.455,102.478,99.854
0.337,0.197,0.255,358.093,106.201,93.506
0.448,0.275,0.075,349.854,96.802,83.923
0.373,0.339,-0.104,337.280,85.266,70.313
0.319,0.449,-0.271,326.721,82.947,59.326
0.328,0.525,-0.443,320.312,93.323,51.697
0.349,0.579,-0.613,315.430,99.670,44.800
0.361,0.634,-0.797,307.373,94.604,33.875
0.283,0.669,-1.009,294.800,85.876,20.264
0.238,0.685,-1.197,277.710,78.125,9.033
0.101,0.668,-1.377,253.845,69.946,2.441
0.000,0.616,-1.572,228.760,65.491,2.808
0.026,0.564,-1.711,202.698,69.092,7.141
-0.015,0.521,-1.821,175.354,70.374,8.362
-0.076,0.446,-1.912,150.513,62.256,6.836
-0.156,0.369,-1.973,124.573,49.377,5.127
-0.167,0.297,-1.991,99.976,37.109,3.784
-0.235,0.231,-1.995,76.233,21.057,1.953
-0.235,0.158,-1.965,51.758,5.127,2.930
-0.203,0.080,-1.889,24.292,-3.540,7.141
-0.098,0.016,-1.785,-4.578,-7.568,11.230
-0.070,-0.069,-1.673,-34.973,-10.681,13.000
-0.015,-0.180,-1.547,-66.406,-11.963,15.015
0.086,-0.232,-1.380,-95.276,-9.827,16.968
0.193,-0.237,-1.176,-117.126,-11.780,15.808
0.204,-0.247,-1.025,-128.357,-19.958,11.108
0.187,-0.298,-0.932,-131.470,-27.771,7.996
0.171,-0.343,-0.876,-131.958,-29.541,7.996
0.187,-0.352,-0.840,-132.446,-27.832,12.268
0.227,-0.348,-0.836,-134.155,-25.024,17.700
0.314,-0.362,-0.849,-137.695,-23.132,19.958
0.402,-0.359,-0.848,-144.287,-26.489,16.724
0.470,-0.325,-0.798,-153.320,-36.804,8.545
0.507,-0.340,-0.754,-164.185,-49.683,-3.662
0.558,-0.334,-0.637,-176.636,-63.110,-19.287
0.519,-0.377,-0.502,-188.293,-76.477,-33.508
0.428,-0.432,-0.308,-198.608,-82.947,-47.913
0.228,-0.447,-0.148,-205.078,-82.520,-57.007
0.057,-0.524,0.003,-208.191,-69.763,-51.880
0.001,-0.557,0.116,-206.421,-39.856,-33.630
0.057,-0.538,0.168,-196.106,-12.024,-11.658
0.157,-0.558,0.152,-181.763,1.526,7.629
0.251,-0.593,0.094,-171.997,2.319,20.996
0.425,-0.600,0.088,-170.654,-3.174,23.621
0.586,-0.585,0.171,-176.819,-17.578,12.146
0.637,-0.566,0.268,-184.082,-44.617,-9.216
0.546,-0.571,0.372,-191.223,-78.613,-35.278
0.412,-0.633,0.480,-201.965,-97.717,-58.472
0.206,-0.650,0.587,-212.402,-96.619,-75.134
0.009,-0.654,0.682,-214.905,-81.360,-77.332
-0.096,-0.678,0.757,-208.130,-56.274,-61.279
-0.028,-0.682,0.807,-192.688,-26.794,-34.058
0.199,-0.679,0.890,-170.349,-10.498,-10.986
0.414,-0.637,0.956,-150.330,-25.146,-5.066
0.451,-0.575,0.971,-134.521,-61.096,-14.343
0.328,-0.667,0.916,-123.718,-94.788,-31.494
0.122,-0.814,0.905,-125.366,-98.938,-42.542
-0.058,-0.753,0.822,-144.775,-77.454,-49.377
-0.061,-0.759,0.950,-164.124,-23.621,-33.142
0.015,-0.788,0.948,-174.866,25.513,-15.198
0.221,-0.806,1.128,-176.880,50.659,-8.667
0.321,-0.705,1.264,-165.588,46.021,-11.536
0.295,-0.629,1.263,-134.399,16.968,-18.616
0.245,-0.662,1.181,-95.886,-28.198,-25.635
0.117,-0.700,1.100,-70.313,-70.740,-27.466
0.016,-0.698,1.056,-60.913,-91.248,-24.902
-0.052,-0.730,1.058,-62.805,-83.252,-20.447
-0.044,-0.766,1.068,-72.266,-49.927,-15.259
-0.018,-0.799,1.076,-81.299,-8.850,-10.254
0.096,-0.771,1.097,-84.778,24.292,-4.822
0.162,-0.736,1.099,-79.773,36.072,-1.831
0.198,-0.708,1.062,-67.627,28.381,-3.357
0.185,-0.704,0.982,-52.063,9.827,-4.883
0.165,-0.726,0.911,-39.246,-10.498,-5.615
0.137,-0.724,0.876,-33.142,-29.663,-8.118
0.106,-0.704,0.856,-31.677,-42.664,-10.803
0.094,-0.701,0.858,-32.104,-46.509,-12.329
0.061,-0.713,0.876,-34.668,-41.260,-13.855
0.009,-0.719,0.898,-38.818,-29.785,-13.062
0.002,-0.719,0.933,-42.175,-11.963,-7.812
0.030,-0.693,0.957,-41.870,8.911,-0.854
0.091,-0.697,0.971,-39.490,27.283,5.859
0.187,-0.663,0.975,-35.095,37.720,8.911
0.218,-0.643,0.954,-26.672,29.785,6.531
0.169,-0.668,0.885,-17.456,8.545,3.357
0.114,-0.690,0.836,-11.963,-9.216,1.282
0.095,-0.687,0.828,-11.353,-16.846,0.610
0.081,-0.669,0.841,-13.367,-17.883,0.488
0.079,-0.660,0.850,-14.526,-13.855,1.648
0.075,-0.649,0.845,-14.404,-5.371,3.967
0.080,-0.644,0.813,-12.695,2.563,7.568
0.109,-0.635,0.775,-10.803,9.033,12.207
0.144,-0.618,0.748,-10.193,12.939,14.587
0.193,-0.604,0.750,-10.864,11.902,13.184
0.190,-0.582,0.757,-11.108,6.042,7.996
0.152,-0.588,0.747,-9.888,-3.052,2.563
0.132,-0.611,0.743,-9.338,-9.338,0.305
0.140,-0.602,0.785,-10.681,-12.207,-1.160
0.136,-0.585,0.819,-10.986,-14.771,-2.808
0.120,-0.595,0.828,-8.911,-17.822,-3.235
0.085,-0.611,0.815,-6.653,-19.470,-1.953
0.065,-0.620,0.796,-6.226,-16.357,1.282
0.077,-0.611,0.793,-6.348,-9.949,5.310
0.130,-0.675,2.348,55.603,28.137,1.526
0.130,-0.761,2.622,73.914,32.532,-0.366
0.042,-0.814,2.851,101.013,31.372,1.526
-0.071,-0.832,2.895,137.329,32.593,8.179
-0.075,-0.830,2.855,184.387,36.804,20.874
-0.028,-0.886,2.887,224.854,40.283,33.386
0.014,-0.896,2.950,246.399,46.936,37.903
0.025,-0.879,2.951,260.742,60.242,35.034
-0.092,-0.890,2.903,275.391,75.317,36.011
-0.081,-0.843,2.773,289.856,100.037,41.504
-0.107,-0.721,2.634,308.105,114.746,52.002
-0.090,-0.500,2.328,333.862,123.901,63.171
-0.021,-0.310,1.912,365.173,124.268,71.472
0.068,-0.216,1.588,389.771,116.028,75.806
0.009,-0.089,1.249,399.780,103.760,71.533
-0.072,0.231,0.932,413.879,85.571,66.162
-0.121,0.312,0.535,433.350,64.026,69.946
-0.114,0.461,0.200,440.979,47.607,70.923
-0.082,0.594,-0.083,435.303,34.668,77.820
0.004,0.713,-0.292,416.565,42.358,86.914
0.067,0.787,-0.483,389.404,61.584,93.079
0.194,0.820,-0.620,358.765,85.876,94.910
0.355,0.940,-0.710,330.200,109.863,88.379
0.438,1.073,-0.805,309.753,119.507,70.374
0.349,1.123,-1.009,296.326,117.249,47.852
0.241,1.081,-1.270,286.621,117.249,33.875
0.154,1.012,-1.543,273.499,121.643,30.029
0.082,0.966,-1.808,254.089,123.291,25.391
0.033,0.934,-2.083,231.323,112.854,15.442
-0.078,0.921,-2.360,202.820,90.515,2.563
-0.233,0.836,-2.605,164.307,62.866,-5.615
-0.362,0.711,-2.732,118.164,43.091,-7.263
-0.464,0.570,-2.710,65.735,33.508,-5.676
-0.436,0.488,-2.573,14.526,29.785,-3.113
-0.368,0.392,-2.372,-28.564,24.109,-2.808
-0.315,0.259,-2.148,-63.599,9.888,-5.371
-0.268,0.128,-1.900,-94.421,-8.362,-7.507
-0.212,0.015,-1.628,-122.742,-23.193,-5.737
-0.119,-0.087,-1.330,-146.912,-31.189,-1.221
-0.030,-0.165,-1.084,-162.903,-38.025,4.333
0.054,-0.225,-0.876,-170.532,-44.434,9.644
0.134,-0.280,-0.720,-171.814,-52.734,12.817
0.181,-0.340,-0.623,-169.861,-60.547,13.184
0.212,-0.384,-0.548,-167.114,-63.782,9.338
0.233,-0.427,-0.478,-164.795,-63.538,5.798
0.231,-0.447,-0.422,-163.513,-60.120,4.883
0.200,-0.474,-0.405,-161.316,-55.847,5.554
0.156,-0.499,-0.390,-159.668,-51.208,8.301
0.188,-0.470,-0.349,-161.133,-41.382,13.489
0.230,-0.477,-0.297,-164.612,-30.823,22.217
0.323,-0.494,-0.234,-168.579,-21.973,26.123
0.400,-0.493,-0.156,-170.227,-19.348,21.118
0.426,-0.498,-0.065,-169.861,-26.794,14.099
0.402,-0.525,0.012,-171.448,-36.072,7.935
0.367,-0.562,0.077,-172.363,-38.635,1.526
0.400,-0.600,0.159,-170.532,-39.001,-2.686
0.429,-0.609,0.261,-168.457,-41.931,-4.700
0.432,-0.594,0.318,-164.368,-45.715,-7.568
0.401,-0.594,0.303,-156.006,-48.950,-10.803
0.401,-0.633,0.226,-147.888,-50.354,-11.841
0.431,-0.675,0.177,-148.193,-48.889,-13.245
0.418,-0.687,0.175,-158.142,-47.546,-17.517
0.382,-0.672,0.222,-171.021,-48.889,-24.841
0.310,-0.649,0.336,-181.274,-50.476,-32.715
0.212,-0.600,0.444,-185.425,-50.537,-36.499
0.179,-0.604,0.518,-181.335,-48.523,-32.349
0.199,-0.650,0.591,-173.035,-44.495,-23.499
0.303,-0.691,0.691,-164.917,-40.283,-14.526
0.369,-0.670,0.788,-158.752,-40.161,-12.268
0.379,-0.661,0.841,-151.733,-43.945,-16.174
0.242,-0.575,0.752,-145.447,-46.570,-20.935
0.175,-0.897,0.795,-141.602,-42.053,-15.442
0.214,-0.738,0.804,-146.667,-31.250,-20.569
0.232,-0.712,0.825,-143.738,-25.391,-10.132
0.228,-0.786,0.892,-134.644,-32.043,-3.479
0.258,-0.753,0.924,-124.634,-30.640,-7.507
0.279,-0.725,1.001,-115.417,-37.415,-11.841
0.266,-0.738,1.079,-107.300,-45.898,-15.198
0.271,-0.757,1.145,-101.685,-47.607,-17.639
0.278,-0.769,1.199,-97.351,-41.565,-17.822
0.271,-0.798,1.193,-91.492,-34.180,-15.442
0.247,-0.824,1.133,-83.862,-25.574,-11.353
0.233,-0.843,1.059,-77.332,-17.090,-5.798
0.251,-0.866,1.064,-71.655,-7.202,-0.366
0.266,-0.807,1.067,-62.805,-0.916,1.587
0.256,-0.794,1.005,-47.485,-5.432,2.930
0.269,-0.791,0.896,-31.860,-14.587,5.249
0.286,-0.798,0.790,-23.499,-23.682,3.784
0.280,-0.797,0.746,-25.269,-27.893,-0.549
0.249,-0.796,0.729,-34.119,-27.527,-6.226
0.200,-0.795,0.737,-44.006,-24.231,-9.766
0.154,-0.774,0.754,-53.101,-18.005,-8.484
0.157,-0.755,0.786,-58.472,-6.714,-3.784
0.211,-0.737,0.849,-59.387,7.324,0.671
0.240,-0.694,0.892,-55.115,15.076,2.747
0.252,-0.670,0.870,-45.715,11.902,4.456
0.239,-0.683,0.801,-34.302,2.563,6.775
0.203,-0.700,0.759,-26.428,-5.920,8.728
0.299,-0.698,0.834,-25.635,-8.179,9.583
0.169,-0.639,0.629,-30.029,-21.484,7.751
0.207,-0.650,0.698,-33.997,-10.498,4.272
0.197,-0.654,0.689,-38.452,-6.409,4.028
0.201,-0.630,0.706,-42.725,-5.676,4.883
0.260,-0.628,0.781,-44.189,-0.549,5.371
0.255,-0.624,0.884,-42.908,-2.319,2.686
0.230,-0.576,0.953,-36.499,-8.911,-0.427
0.217,-0.575,0.961,-25.024,-17.334,-0.122
0.209,-0.608,0.938,-14.465,-24.353,2.502
0.183,-0.599,0.914,-8.118,-28.442,3.906
0.177,-0.589,0.865,-4.089,-29.907,6.104
0.193,-0.606,0.806,-3.052,-24.658,7.080
0.188,-0.630,0.757,-6.042,-13.489,7.629
0.186,-0.639,0.734,-12.146,-1.282,8.362
0.218,-0.629,0.747,-17.334,7.935,10.132
0.288,-0.615,0.786,-19.653,12.634,10.498
0.334,-0.606,0.826,-18.616,7.019,5.737
0.301,-0.615,0.831,-15.076,-8.057,-1.526
0.231,-0.642,0.833,-11.841,-23.193,-7.080
0.166,-0.662,0.851,-10.559,-29.358,-9.888
0.169,-0.764,2.067,101.990,-16.968,9.583
0.144,-0.918,2.225,112.610,-15.808,7.385
0.042,-0.971,2.445,112.793,-5.310,2.258
-0.006,-0.925,2.656,120.239,12.146,1.526
-0.036,-0.907,2.727,146.973,20.508,8.301
0.000,-0.929,2.714,175.842,24.231,18.066
-0.046,-0.980,2.569,198.059,31.433,27.039
-0.061,-0.970,2.323,219.971,47.913,33.264
-0.014,-0.925,2.000,240.417,61.096,37.476
0.127,-0.872,1.800,253.174,66.895,37.415
0.223,-0.837,1.707,254.883,55.542,29.846
0.119,-0.743,1.659,248.962,38.269,17.517
-0.024,-0.660,1.584,246.887,33.081,10.803
-0.069,-0.613,1.529,249.084,45.776,14.893
-0.082,-0.499,1.455,251.648,66.772,26.245
-0.014,-0.281,1.298,263.794,84.595,37.842
0.099,-0.131,1.022,286.194,88.623,50.110
0.169,-0.016,0.459,316.528,66.956,52.185
0.221,0.113,0.243,316.528,57.739,42.786
0.220,0.211,0.034,311.707,45.044,36.438
0.229,0.269,-0.164,304.932,36.499,32.532
0.288,0.275,-0.335,291.992,31.616,26.306
0.276,0.274,-0.443,267.944,29.419,17.517
0.306,0.310,-0.448,241.882,27.161,8.545
0.353,0.386,-0.351,221.619,27.344,0.427
0.301,0.485,-0.361,212.341,33.630,-9.094
0.233,0.507,-0.510,220.276,41.199,-12.268
0.205,0.429,-0.730,228.577,50.781,-5.127
0.154,0.332,-0.971,228.271,60.608,3.784
0.157,0.288,-1.208,223.328,63.782,8.240
0.126,0.310,-1.497,214.294,58.105,7.141
0.025,0.276,-1.791,197.327,46.387,7.019
-0.026,0.251,-2.046,173.157,42.969,11.536
0.006,0.259,-2.263,145.264,46.509,14.893
0.040,0.242,-2.438,115.845,40.588,13.306
0.062,0.195,-2.550,83.191,22.888,6.287
0.044,0.141,-2.583,45.837,0.183,-4.822
0.019,0.061,-2.507,5.493,-23.621,-12.329
0.013,-0.020,-2.302,-37.781,-38.452,-13.916
0.048,-0.068,-2.012,-79.163,-42.358,-14.160
0.099,-0.114,-1.708,-114.563,-42.419,-14.282
0.135,-0.187,-1.404,-142.395,-40.771,-14.343
0.169,-0.275,-1.107,-162.170,-37.598,-17.639
0.132,-0.360,-0.862,-174.500,-34.607,-22.156
0.067,-0.417,-0.686,-179.199,-32.776,-23.254
0.007,-0.463,-0.588,-177.490,-30.334,-18.311
-0.018,-0.498,-0.553,-173.767,-25.269,-9.399
-0.002,-0.500,-0.559,-171.387,-16.602,-0.244
0.047,-0.473,-0.580,-171.692,-7.507,7.812
0.151,-0.428,-0.570,-174.194,-0.916,11.902
0.266,-0.427,-0.512,-178.894,2.563,8.118
0.336,-0.397,-0.431,-184.021,-6.042,-2.991
0.300,-0.416,-0.353,-187.927,-27.527,-11.353
0.236,-0.469,-0.218,-192.078,-46.631,-17.883
0.161,-0.468,-0.015,-195.312,-58.228,-21.790
0.081,-0.461,0.165,-192.322,-60.852,-18.005
0.006,-0.495,0.273,-179.687,-54.688,-5.432
0.014,-0.488,0.307,-161.316,-42.603,11.780
0.097,-0.447,0.263,-145.508,-28.442,28.625
0.266,-0.460,0.171,-140.503,-13.123,35.828
0.394,-0.494,0.076,-152.222,2.075,27.710
0.383,-0.499,0.062,-176.697,8.911,11.414
0.401,-0.539,0.235,-203.796,6.775,-3.418
0.361,-0.567,0.649,-229.858,0.183,-16.296
0.306,-0.501,1.096,-244.385,-12.024,-25.696
0.203,-0.512,1.411,-231.323,-23.621,-25.391
0.157,-0.583,1.533,-196.960,-23.682,-13.550
0.172,-0.598,1.499,-156.799,-15.625,3.418
0.233,-0.521,1.337,-121.277,-9.583,20.264
0.313,-0.546,1.032,-96.313,-0.610,30.029
0.326,-0.651,0.859,-90.698,14.465,29.236
0.407,-0.852,0.785,-100.586,23.804,26.306
0.536,-0.718,0.787,-116.333,-1.709,10.864
0.483,-0.641,0.876,-127.136,-46.021,2.014
0.436,-0.702,1.106,-130.066,-85.144,-17.334
0.240,-0.793,1.293,-126.892,-117.432,-36.255
-0.000,-0.792,1.472,-118.530,-129.395,-47.974
-0.160,-0.795,1.494,-100.098,-116.760,-43.640
-0.223,-0.771,1.387,-77.026,-86.548,-24.963
-0.206,-0.762,1.205,-59.265,-40.588,-1.770
-0.120,-0.781,0.962,-53.406,14.038,20.203
0.005,-0.870,0.808,-61.829,64.819,36.316
0.232,-0.811,0.807,-77.087,97.046,43.457
0.409,-0.697,0.876,-84.351,89.111,36.926
0.447,-0.623,0.927,-78.369,43.030,18.616
0.318,-0.647,0.907,-66.406,-12.207,-1.953
0.147,-0.712,0.852,-57.800,-51.636,-15.503
0.050,-0.702,0.850,-55.359,-66.040,-20.325
0.008,-0.714,0.754,-59.082,-62.744,-18.982
0.024,-0.681,0.773,-67.810,-43.823,-17.273
0.006,-0.652,0.809,-75.623,-20.752,-8.728
0.076,-0.616,0.840,-77.881,5.371,0.916
0.211,-0.576,0.875,-74.402,21.667,9.399
0.321,-0.560,0.947,-68.115,21.057,10.681
0.339,-0.516,0.983,-59.631,5.554,3.540
0.299,-0.497,0.965,-48.828,-18.433,-6.348
0.215,-0.569,0.931,-41.321,-40.100,-14.893
0.126,-0.616,0.912,-41.870,-48.828,-20.020
0.059,-0.600,0.906,-47.180,-44.434,-20.081
0.062,-0.604,0.912,-52.246,-32.898,-14.954
0.018,-0.613,0.876,-56.335,-19.226,-7.629
0.081,-0.633,0.965,-57.373,7.507,0.122
0.171,-0.624,1.073,-56.580,25.757,5.920
0.315,-0.615,1.176,-50.049,30.029,4.822
0.527,-0.744,1.330,-40.833,8.240,-4.578
0.626,-0.990,1.632,-43.640,-34.302,-22.095
0.073,-0.827,1.702,-56.396,-75.012,-46.204
-0.264,-0.652,1.529,-38.330,-62.256,-56.641
-0.217,-0.579,1.299,-1.770,-8.240,-35.400
-0.051,-0.650,1.019,20.630,34.912,3.113
0.059,-0.634,0.841,24.719,60.608,28.442
0.167,-0.526,0.720,22.949,67.810,32.471
0.245,-0.444,0.728,19.226,56.824,26.550
0.125,-0.451,0.493,17.212,26.428,17.700
0.124,-0.431,0.460,14.465,6.470,7.141
0.112,-0.425,0.427,9.338,-4.944,1.831
0.102,-0.427,0.458,-1.038,-11.658,2.197
0.172,-0.454,0.547,-12.939,-11.230,-0.793
0.210,-0.488,0.677,-26.001,-14.221,-7.751
0.230,-0.588,2.833,79.346,-15.442,-7.141
0.067,-0.712,3.256,95.764,-17.456,-11.475
-0.134,-0.707,3.558,118.164,-0.427,-10.742
-0.097,-0.601,3.595,161.987,27.588,1.404
0.014,-0.548,3.285,222.473,42.236,20.325
0.063,-0.642,2.979,268.433,46.570,29.663
-0.113,-0.750,2.542,293.030,43.335,28.687
-0.111,-0.683,2.349,302.307,49.500,27.222
-0.140,-0.630,2.089,304.687,52.307,30.518
-0.172,-0.600,1.840,305.603,64.819,35.339
-0.140,-0.493,1.637,306.763,74.036,39.490
-0.104,-0.299,1.437,310.425,74.768,44.861
-0.020,-0.087,1.235,317.932,68.726,48.157
-0.011,-0.049,0.993,321.899,60.974,47.058
-0.062,0.118,0.742,320.190,62.561,46.936
-0.031,0.106,0.443,322.815,75.806,56.152
0.111,0.245,0.148,323.242,87.646,55.420
0.240,0.363,-0.124,320.068,81.848,54.321
0.375,0.404,-0.310,308.533,78.308,50.842
0.470,0.468,-0.419,291.504,73.914,36.682
0.505,0.512,-0.529,277.954,58.899,14.099
0.474,0.484,-0.611,267.517,37.109,-4.822
0.342,0.494,-0.711,256.348,18.982,-17.029
0.279,0.481,-0.827,246.582,13.428,-21.240
0.189,0.443,-0.930,235.474,24.841,-17.578
0.146,0.380,-1.058,223.389,46.570,-10.925
0.045,0.309,-1.210,209.717,69.214,-4.028
0.031,0.255,-1.371,193.787,90.149,3.845
0.038,0.198,-1.510,175.415,109.436,10.864
0.143,0.138,-1.639,160.339,116.089,12.390
0.094,0.116,-1.789,150.452,95.825,5.432
0.011,0.040,-1.947,140.930,51.636,-3.357
-0.128,-0.033,-2.085,125.061,10.071,-7.141
-0.167,-0.070,-2.177,99.670,-13.428,-7.385
-0.171,-0.081,-2.226,64.758,-22.522,-7.996
-0.163,-0.137,-2.203,21.423,-24.597,-9.216
-0.178,-0.219,-2.087,-26.306,-21.240,-9.766
-0.160,-0.267,-1.877,-73.730,-14.526,-8.423
-0.088,-0.281,-1.621,-111.267,-5.676,-3.784
0.023,-0.286,-1.366,-136.536,5.066,2.319
0.118,-0.295,-1.187,-149.231,9.460,6.348
0.122,-0.336,-1.065,-154.358,5.127,8.423
0.065,-0.380,-0.952,-159.058,0.916,7.568
0.012,-0.426,-0.842,-164.185,-0.488,8.240
0.012,-0.453,-0.735,-168.091,1.953,12.634
0.037,-0.480,-0.648,-170.898,3.174,18.250
0.064,-0.500,-0.585,-173.096,0.305,22.888
0.111,-0.502,-0.472,-176.025,-5.188,26.611
0.204,-0.497,-0.365,-179.565,-12.573,27.893
0.268,-0.488,-0.237,-183.044,-26.367,24.902
0.226,-0.559,-0.101,-185.364,-39.490,20.203
0.120,-0.617,0.063,-186.829,-42.969,12.268
0.058,-0.631,0.215,-184.692,-38.391,11.169
0.056,-0.610,0.305,-177.185,-26.917,21.729
0.121,-0.620,0.329,-166.809,-14.648,36.072
0.305,-0.658,0.353,-158.752,-6.226,45.776
0.424,-0.652,0.406,-158.691,-8.118,46.326
0.465,-0.606,0.450,-162.292,-19.958,39.612
0.452,-0.635,0.486,-165.100,-28.687,29.358
0.384,-0.702,0.624,-167.358,-28.687,19.165
0.295,-0.678,0.753,-165.710,-24.109,12.695
0.213,-0.692,0.869,-156.067,-20.020,15.381
0.177,-0.690,0.936,-143.555,-9.155,24.658
0.242,-0.625,0.931,-128.845,5.859,36.194
0.346,-0.618,0.859,-114.746,16.418,45.227
0.425,-0.660,0.788,-107.605,18.616,47.668
0.436,-0.535,0.757,-110.046,15.686,43.335
0.602,-0.732,0.859,-115.845,6.104,37.109
0.767,-0.625,0.931,-121.521,-28.503,15.381
0.666,-0.668,1.039,-118.286,-71.228,1.831
0.394,-0.734,1.154,-111.145,-111.572,-16.357
0.121,-0.799,1.255,-102.417,-116.577,-27.527
0.002,-0.835,1.267,-91.736,-83.069,-18.433
0.095,-0.801,1.216,-77.759,-33.203,1.892
0.205,-0.778,1.070,-65.796,7.202,19.470
0.266,-0.840,0.924,-60.242,35.461,29.236
0.389,-0.823,0.810,-60.608,52.307,32.532
0.548,-0.799,0.771,-61.707,45.166,30.334
0.594,-0.790,0.792,-64.331,13.123,20.081
0.521,-0.746,0.805,-68.298,-24.597,3.601
0.414,-0.764,0.803,-69.458,-51.697,-11.292
0.283,-0.832,0.905,-70.801,-64.880,-19.226
0.192,-0.806,1.022,-70.129,-59.875,-19.409
0.136,-0.768,1.050,-60.852,-43.579,-11.780
0.156,-0.731,0.980,-45.593,-22.400,1.404
0.244,-0.653,0.850,-32.043,-2.563,15.320
0.311,-0.691,0.729,-25.330,12.512,22.400
0.371,-0.734,0.683,-26.794,21.606,21.851
0.422,-0.700,0.701,-31.616,17.822,16.724
0.430,-0.665,0.740,-34.363,-0.671,9.155
0.384,-0.674,0.770,-34.363,-22.095,0.549
0.277,-0.704,0.796,-34.729,-36.499,-5.859
0.219,-0.709,0.844,-36.621,-36.438,-7.385
0.212,-0.687,0.865,-37.231,-26.855,-4.883
0.225,-0.674,0.847,-33.936,-17.395,0.061
0.257,-0.654,0.795,-29.236,-9.644,5.798
0.285,-0.628,0.735,-26.245,-4.272,8.850
0.302,-0.614,0.688,-25.940,-0.977,9.094
0.311,-0.601,0.668,-28.381,2.319,6.897
0.328,-0.596,0.679,-31.616,4.883,2.502
0.333,-0.610,0.718,-33.203,2.258,-2.502
0.293,-0.616,0.746,-32.532,-5.432,-6.470
0.261,-0.638,0.761,-30.029,-13.306,-9.216
0.241,-0.648,0.781,-28.381,-16.418,-8.850
0.219,-0.659,0.825,-28.687,-15.625,-6.653
0.204,-0.638,0.861,-28.809,-12.634,-4.639
0.230,-0.604,0.883,-25.330,-6.470,-1.160
0.285,-0.613,0.905,-19.592,-0.793,2.136
0.303,-0.610,0.925,-14.404,1.099,1.526
0.277,-0.593,0.918,-9.033,-1.831,-1.709
0.227,-0.623,0.886,-3.784,-6.042,-2.319
0.199,-0.656,0.869,-0.977,-5.737,-1.099
0.195,-0.653,0.857,0.488,-2.075,0.061
0.204,-0.644,0.829,2.380,-1.221,1.892
0.208,-0.647,0.803,3.906,-2.747,5.127
0.219,-0.640,0.781,3.357,-4.517,7.751
0.237,-0.628,0.776,1.404,-4.395,8.789
0.246,-0.631,0.777,-1.343,-1.465,8.240
0.282,-0.628,0.801,-3.723,3.845,5.981
0.331,-0.599,2.027,35.583,-35.828,-12.024
0.325,-0.766,2.267,56.580,-33.325,-14.404
0.307,-0.850,2.549,72.388,-26.184,-18.738
0.249,-0.852,2.831,88.928,-26.550,-21.240
0.161,-0.851,3.040,112.488,-26.978,-20.691
0.084,-0.902,3.102,146.362,-19.470,-16.724
0.005,-0.955,3.063,182.068,-8.240,-9.216
-0.000,-0.946,2.954,211.304,2.563,-2.014
-0.258,-0.922,2.568,237.183,6.531,6.409
-0.243,-0.817,2.290,266.968,27.222,17.517
-0.204,-0.756,1.915,291.748,37.720,32.532
-0.171,-0.679,1.628,300.049,43.579,44.495
-0.144,-0.546,1.421,296.936,48.584,48.950
-0.042,-0.433,1.261,295.959,52.185,50.720
-0.047,-0.281,1.126,296.509,45.044,51.086
-0.071,-0.161,0.969,297.668,36.804,50.781
-0.036,-0.119,0.755,302.612,35.583,56.396
0.076,-0.061,0.597,304.565,43.152,60.852
0.158,0.057,0.399,305.481,49.316,61.279
0.255,0.175,0.204,309.875,51.208,63.599
0.441,0.240,0.042,311.707,52.856,65.002
0.577,0.286,-0.102,304.382,50.232,57.495
0.643,0.303,-0.203,293.213,44.861,40.649
0.592,0.342,-0.281,281.250,35.767,21.057
0.448,0.367,-0.383,272.217,26.733,6.958
0.293,0.383,-0.520,266.663,29.785,2.686
0.205,0.385,-0.720,261.719,46.143,5.554
0.170,0.393,-0.997,257.690,63.904,12.634
0.209,0.443,-1.340,251.770,73.181,20.996
0.200,0.503,-1.686,239.380,77.148,25.330
0.165,0.527,-2.021,220.398,79.102,24.841
0.155,0.521,-2.320,196.350,81.177,22.827
0.095,0.473,-2.576,165.833,79.590,19.165
0.003,0.414,-2.758,130.859,69.336,13.062
-0.076,0.296,-2.820,89.478,50.232,5.127
-0.150,0.158,-2.725,40.649,29.602,-1.892
-0.211,0.054,-2.483,-9.521,13.184,-5.920
-0.227,-0.028,-2.144,-56.274,0.916,-7.629
-0.188,-0.133,-1.778,-96.680,-4.089,-6.653
-0.129,-0.239,-1.428,-127.747,-5.676,-2.319
-0.050,-0.322,-1.101,-147.522,-9.277,3.662
0.018,-0.397,-0.839,-158.081,-16.785,8.850
0.074,-0.481,-0.625,-163.025,-24.841,13.245
0.096,-0.547,-0.435,-164.795,-26.001,15.259
0.090,-0.603,-0.308,-161.560,-22.095,18.066
0.102,-0.645,-0.255,-153.564,-15.686,24.231
0.149,-0.656,-0.239,-145.081,-10.071,32.166
0.216,-0.647,-0.252,-138.550,-7.629,38.635
0.278,-0.622,-0.261,-133.545,-8.911,41.687
0.363,-0.635,-0.273,-131.592,-13.611,42.114
0.467,-0.610,-0.236,-133.362,-20.752,37.537
0.473,-0.622,-0.212,-135.681,-30.090,30.884
0.453,-0.617,-0.204,-138.000,-36.926,20.813
0.449,-0.617,-0.179,-142.212,-39.734,9.583
0.405,-0.635,-0.135,-149.475,-38.147,2.686
0.334,-0.662,-0.015,-157.959,-32.776,-1.953
0.293,-0.649,0.115,-163.391,-24.048,-4.333
0.259,-0.646,0.217,-163.452,-16.357,-2.869
0.265,-0.659,0.301,-160.095,-9.460,3.113
0.303,-0.645,0.364,-153.320,-3.906,10.315
0.339,-0.623,0.369,-142.273,-4.822,14.526
0.421,-0.615,0.319,-130.310,-12.390,15.869
0.525,-0.683,0.300,-126.526,-22.644,12.146
0.516,-0.691,0.286,-136.719,-33.691,0.793
0.403,-0.679,0.312,-152.283,-40.771,-12.512
0.325,-0.695,0.398,-169.983,-36.560,-22.278
0.251,-0.691,0.519,-185.730,-20.203,-26.062
0.197,-0.680,0.649,-188.965,-1.831,-23.865
0.207,-0.687,0.753,-177.307,14.771,-15.381
0.251,-0.663,0.768,-157.471,18.982,-5.676
0.280,-0.661,0.727,-134.094,10.315,1.770
0.343,-0.684,0.670,-112.488,-5.737,7.568
0.397,-0.663,0.633,-98.755,-31.738,8.240
0.438,-0.615,0.608,-93.445,-61.646,1.831
0.414,-0.565,0.539,-97.229,-82.825,-9.338
0.301,-0.754,0.576,-110.107,-87.891,-18.616
0.238,-0.663,0.586,-131.653,-74.829,-35.034
0.227,-0.694,0.792,-147.217,-45.654,-28.259
0.218,-0.690,0.825,-158.691,-13.489,-21.240
0.336,-0.671,0.972,-160.889,6.653,-23.010
0.399,-0.658,1.041,-149.597,11.108,-25.513
0.435,-0.606,1.070,-128.662,-9.399,-31.311
0.346,-0.628,1.033,-102.966,-55.908,-34.363
0.199,-0.659,0.964,-84.106,-100.464,-35.706
0.053,-0.668,0.903,-74.951,-124.939,-35.400
-0.087,-0.703,0.860,-74.463,-120.483,-32.471
-0.165,-0.714,0.866,-80.811,-87.341,-24.841
-0.167,-0.691,0.850,-88.928,-36.011,-12.207
-0.065,-0.662,0.892,-91.553,17.883,3.540
0.122,-0.624,0.966,-91.003,57.373,14.404
0.312,-0.572,1.064,-86.487,66.345,16.418
0.376,-0.525,1.121,-75.623,38.025,10.864
0.295,-0.520,1.114,-60.242,-10.437,0.977
0.136,-0.598,1.052,-45.471,-52.673,-3.967
0.019,-0.661,0.988,-36.438,-71.777,-3.662
-0.017,-0.674,0.951,-34.668,-66.284,0.671
0.006,-0.653,0.945,-37.537,-45.105,6.714
0.043,-0.617,0.924,-40.100,-19.104,13.794
0.114,-0.601,0.894,-39.124,5.615,21.729
0.192,-0.579,0.867,-35.950,20.569,25.757
0.269,-0.551,0.853,-32.654,20.142,24.292
0.318,-0.523,0.871,-30.518,7.080,17.395
0.301,-0.506,0.892,-29.663,-12.756,7.141
0.248,-0.518,0.914,-30.212,-32.349,-2.441
0.185,-0.537,0.943,-32.898,-44.067,-8.240
0.132,-0.561,0.971,-37.537,-41.809,-10.010
0.090,-0.590,1.007,-42.236,-27.588,-7.751
0.078,-0.589,1.050,-44.128,-5.859,-2.869
0.121,-0.556,1.069,-39.734,16.113,4.578
0.194,-0.551,1.052,-28.870,27.832,11.475
0.209,-0.545,1.003,-15.808,24.780,13.489
0.180,-0.544,0.920,-3.906,12.451,11.963
0.151,-0.559,0.864,5.005,-1.892,10.498
0.231,-0.562,0.911,7.690,-14.648,8.423
0.108,-0.552,0.742,2.869,-36.804,3.113
0.136,-0.545,0.826,-5.981,-31.311,-5.066
0.058,-0.539,0.847,-17.273,-28.381,-5.920
0.035,-0.562,0.917,-27.893,-15.564,-2.441
0.080,-0.560,1.003,-34.485,1.770,0.732
0.178,-0.553,2.505,43.762,19.592,-10.742
0.115,-0.508,2.812,62.744,17.578,-12.695
0.063,-0.561,2.918,100.281,15.686,-6.775
0.039,-0.625,2.864,138.855,18.555,2.441
0.052,-0.641,2.710,170.166,25.085,9.766
0.016,-0.665,2.552,191.162,38.818,12.695
-0.003,-0.672,2.391,201.477,57.312,14.160
-0.042,-0.662,2.262,209.229,70.740,18.860
-0.012,-0.633,2.076,219.788,82.458,23.926
0.154,-0.549,2.056,232.056,90.027,24.048
0.121,-0.447,1.884,246.216,76.477,19.104
0.039,-0.369,1.605,267.578,59.387,16.052
0.065,-0.344,1.383,286.438,51.025,15.991
0.034,-0.262,1.212,288.940,46.143,18.188
-0.022,-0.153,1.083,285.645,49.377,20.508
-0.068,-0.056,0.855,288.635,57.739,24.353
-0.014,-0.106,0.724,293.579,73.120,31.067
0.002,0.014,0.574,292.480,77.393,28.687
0.176,0.126,0.479,294.312,72.937,28.625
0.345,0.175,0.439,288.940,62.744,24.536
0.404,0.187,0.386,277.283,39.612,11.414
0.280,0.212,0.248,271.606,16.235,-3.784
0.141,0.257,-0.009,273.926,4.456,-11.169
0.040,0.300,-0.335,276.672,10.925,-5.859
0.078,0.283,-0.623,271.851,36.194,8.179
0.156,0.319,-0.844,256.531,66.895,21.240
0.202,0.399,-1.046,237.488,89.478,25.696
0.235,0.442,-1.291,223.938,104.309,22.156
0.270,0.456,-1.556,215.637,107.788,13.062
0.229,0.430,-1.840,205.017,99.731,2.747
0.195,0.361,-2.138,193.787,88.867,-5.920
0.095,0.289,-2.424,178.650,76.294,-13.123
0.022,0.174,-2.619,152.588,58.594,-18.616
-0.074,0.046,-2.702,116.150,39.063,-23.071
-0.201,-0.067,-2.651,73.303,18.127,-27.893
-0.292,-0.186,-2.485,27.161,-0.305,-29.480
-0.361,-0.281,-2.218,-17.639,-11.292,-25.391
-0.374,-0.360,-1.872,-58.655,-17.273,-18.494
-0.319,-0.401,-1.514,-91.858,-20.447,-10.742
-0.256,-0.442,-1.205,-115.295,-23.499,-2.319
-0.172,-0.494,-0.918,-130.920,-26.489,7.141
-0.071,-0.547,-0.635,-141.907,-26.978,14.771
0.035,-0.597,-0.386,-146.423,-28.931,18.433
0.124,-0.634,-0.204,-144.775,-33.264,19.226
0.166,-0.666,-0.098,-139.160,-37.537,18.433
0.184,-0.739,-0.074,-131.714,-38.757,19.775
0.203,-0.779,-0.081,-125.183,-38.269,20.752
0.250,-0.792,-0.083,-121.399,-37.048,22.583
0.252,-0.811,-0.105,-120.544,-36.743,24.170
0.271,-0.843,-0.048,-120.850,-33.813,25.085
0.313,-0.777,0.051,-121.094,-26.245,24.536
0.292,-0.761,0.086,-115.356,-18.372,24.597
0.279,-0.799,0.082,-104.675,-12.756,25.391
0.307,-0.798,0.066,-94.849,-11.169,25.757
0.335,-0.769,0.048,-87.280,-15.869,27.222
0.343,-0.763,0.005,-82.581,-23.560,28.198
0.348,-0.777,-0.035,-82.336,-28.809,24.536
0.351,-0.777,-0.038,-89.111,-29.968,17.883
0.341,-0.768,-0.004,-100.525,-29.297,12.268
0.363,-0.735,0.040,-111.633,-29.175,7.324
0.397,-0.704,0.100,-120.178,-30.212,1.221
0.382,-0.700,0.177,-126.770,-32.349,-6.714
0.345,-0.731,0.294,-130.432,-34.180,-14.954
0.284,-0.748,0.428,-131.653,-33.447,-19.348
0.223,-0.752,0.524,-128.601,-30.334,-18.127
0.187,-0.783,0.578,-118.958,-25.452,-11.902
0.171,-0.799,0.601,-107.361,-21.179,-2.441
0.127,-0.784,0.580,-97.534,-17.639,8.240
0.134,-0.760,0.516,-88.440,-11.047,19.653
0.269,-0.784,0.458,-83.801,-4.761,28.870
0.367,-0.782,0.454,-91.309,-2.808,30.884
0.426,-0.722,0.485,-104.797,-5.127,24.780
0.466,-0.677,0.520,-114.563,-10.864,11.658
0.420,-0.697,0.552,-118.835,-18.188,-5.127
0.317,-0.708,0.558,-120.239,-26.489,-19.775
0.205,-0.731,0.543,-118.286,-31.860,-27.344
0.122,-0.760,0.551,-114.075,-31.433,-26.123
0.067,-0.625,0.651,-108.215,-28.931,-18.250
0.111,-0.781,0.590,-100.342,-29.053,-6.531
0.271,-0.683,0.639,-94.482,-36.194,-4.211
0.266,-0.667,0.725,-87.402,-54.871,5.249
0.327,-0.612,0.773,-82.825,-74.768,0.610
0.336,-0.581,0.761,-80.627,-86.426,-8.789
0.243,-0.655,0.711,-85.327,-82.703,-20.874
0.129,-0.687,0.661,-96.741,-62.622,-30.823
0.082,-0.708,0.674,-110.229,-35.095,-30.212
0.100,-0.714,0.807,-119.507,-7.996,-22.644
0.153,-0.643,0.924,-117.737,8.240,-17.334
0.192,-0.629,0.962,-102.783,3.784,-13.000
0.213,-0.636,0.960,-84.412,-13.184,-9.766
0.198,-0.631,0.976,-73.242,-37.170,-10.803
0.148,-0.607,0.993,-68.237,-60.364,-14.038
0.116,-0.603,1.013,-66.223,-72.754,-16.052
0.127,-0.532,1.004,-65.186,-80.017,-17.273
-0.025,-0.623,0.936,-62.561,-81.970,-9.888
-0.027,-0.683,0.906,-65.002,-59.753,-11.414
-0.029,-0.639,0.891,-72.449,-30.701,-13.794
-0.001,-0.602,0.923,-77.576,-3.784,-8.240
0.069,-0.593,0.933,-77.026,16.113,-2.014
0.157,-0.570,0.963,-70.496,21.973,0.305
0.209,-0.535,0.990,-62.317,10.681,-1.770
0.187,-0.522,1.001,-56.580,-13.794,-6.409
0.125,-0.546,0.993,-51.147,-39.612,-11.353
0.047,-0.576,0.973,-47.424,-56.519,-14.526
-0.006,-0.588,0.956,-46.448,-59.448,-14.709
-0.042,-0.589,0.934,-48.401,-50.293,-11.658
-0.052,-0.578,0.907,-51.941,-29.724,-7.385
0.004,-0.557,0.922,-55.359,-2.625,-3.174
0.046,-0.535,0.924,-56.091,19.958,-0.610
0.073,-0.509,0.925,-53.040,31.860,-0.183
0.146,-0.488,0.933,-47.607,34.363,-0.854
0.174,-0.467,0.977,-43.457,26.978,-4.822
0.151,-0.473,1.003,-41.382,7.690,-10.498
0.091,-0.492,1.029,-39.673,-13.428,-15.259
0.021,-0.513,1.054,-37.720,-28.076,-17.395
-0.035,-0.524,1.070,-35.828,-31.799,-15.320
-0.060,-0.520,1.081,-33.569,-24.841,-9.705
-0.037,-0.519,1.101,-29.114,-9.216,-3.235
-0.021,-0.487,1.100,-21.606,8.484,2.380
0.131,-0.332,2.940,49.438,19.409,-12.512
0.024,-0.496,3.287,62.866,23.865,-14.587
-0.134,-0.618,3.430,92.712,41.626,-12.024
-0.186,-0.696,3.449,136.047,68.726,0.427
-0.144,-0.645,3.396,180.115,86.975,15.076
-0.100,-0.542,3.270,221.375,89.783,24.658
0.042,-0.449,3.133,259.949,83.252,24.780
0.066,-0.436,3.027,290.222,66.406,19.897
0.052,-0.380,2.766,311.646,46.814,10.925
-0.123,-0.367,2.472,330.322,21.606,5.493
-0.285,-0.308,2.117,345.337,18.860,8.850
-0.355,-0.165,1.696,361.389,35.400,23.865
-0.297,0.015,1.252,377.197,55.054,46.570
-0.215,0.165,0.813,383.057,75.745,68.787
-0.061,0.336,0.435,379.211,97.961,84.045
0.195,0.469,0.060,371.765,111.267,88.806
0.376,0.496,-0.224,356.873,110.229,80.750
0.464,0.541,-0.443,333.679,87.708,57.434
0.521,0.591,-0.485,308.594,64.941,39.429
0.481,0.592,-0.517,285.706,46.814,22.095
0.435,0.529,-0.493,271.606,37.537,5.859
0.417,0.531,-0.527,263.123,40.771,-5.188
0.402,0.550,-0.625,260.132,43.701,-13.367
0.297,0.503,-0.818,259.705,39.978,-18.860
0.126,0.407,-1.042,254.578,44.189,-18.372
0.021,0.293,-1.236,239.502,60.791,-13.000
-0.059,0.211,-1.362,215.149,85.999,-7.080
-0.087,0.156,-1.463,188.293,110.229,-3.052
-0.072,0.109,-1.554,169.495,126.282,0.183
-0.114,0.075,-1.664,156.555,120.972,1.587
-0.180,-0.003,-1.789,146.301,100.647,4.578
-0.199,-0.084,-1.873,135.010,78.857,9.094
-0.127,-0.097,-1.896,122.925,52.246,10.986
-0.101,-0.099,-1.887,107.239,9.155,9.033
-0.106,-0.156,-1.864,87.341,-34.790,5.188
-0.144,-0.238,-1.824,59.204,-61.646,0.061
-0.180,-0.405,-1.718,20.447,-65.613,-1.587
-0.210,-0.532,-1.502,-25.085,-50.537,1.282
-0.188,-0.581,-1.219,-67.017,-25.269,6.226
-0.093,-0.552,-0.938,-93.384,-2.747,12.512
-0.009,-0.576,-0.765,-102.173,6.287,24.475
0.104,-0.645,-0.643,-102.600,10.132,35.645
0.199,-0.667,-0.549,-101.196,11.536,37.903
0.211,-0.704,-0.517,-98.633,3.601,37.354
0.194,-0.748,-0.515,-96.497,-1.953,36.560
0.190,-0.739,-0.536,-96.375,-3.235,35.706
0.200,-0.737,-0.572,-96.924,-2.380,36.194
0.212,-0.736,-0.638,-98.328,-1.770,36.865
0.310,-0.714,-0.643,-102.966,-1.038,36.316
0.437,-0.655,-0.585,-112.549,-3.906,32.288
0.498,-0.639,-0.515,-122.559,-14.282,25.513
0.528,-0.650,-0.425,-129.883,-29.358,12.573
0.497,-0.644,-0.320,-134.155,-47.302,-2.258
0.400,-0.653,-0.245,-134.766,-60.974,-12.695
0.282,-0.673,-0.203,-131.165,-66.101,-17.212
0.201,-0.688,-0.197,-126.038,-61.035,-15.686
0.157,-0.675,-0.193,-123.413,-48.218,-10.620
0.164,-0.671,-0.171,-123.474,-33.264,-4.028
0.232,-0.677,-0.119,-125.854,-22.705,2.563
0.321,-0.666,-0.026,-132.019,-21.667,6.409
0.385,-0.657,0.067,-138.245,-30.823,5.554
0.386,-0.641,0.135,-141.357,-47.058,-0.183
0.339,-0.654,0.195,-141.235,-63.171,-7.812
0.242,-0.665,0.257,-139.099,-71.411,-15.503
0.129,-0.684,0.280,-135.010,-70.007,-18.433
0.068,-0.703,0.282,-129.761,-58.411,-13.245
0.080,-0.701,0.299,-127.930,-40.405,-3.052
0.119,-0.692,0.325,-130.859,-21.179,7.507
0.130,-0.665,0.325,-134.277,-5.310,16.052
0.226,-0.667,0.346,-135.681,11.047,23.804
0.421,-0.648,0.389,-138.184,16.785,27.466
0.517,-0.601,0.464,-141.846,-2.380,20.935
0.502,-0.584,0.522,-145.447,-31.372,7.507
0.379,-0.570,0.560,-146.484,-61.523,-8.545
0.226,-0.606,0.620,-145.264,-79.285,-21.118
0.091,-0.642,0.702,-145.142,-73.364,-25.574
0.041,-0.653,0.779,-141.846,-51.575,-18.860
0.073,-0.498,0.900,-133.301,-27.466,-5.249
0.252,-0.693,0.845,-124.878,-9.766,6.897
0.437,-0.539,0.902,-121.521,-10.376,3.174
0.382,-0.567,0.893,-113.037,-28.931,6.104
0.379,-0.638,0.868,-105.591,-45.776,-4.333
0.303,-0.652,0.846,-102.173,-63.538,-16.479
0.212,-0.640,0.830,-102.295,-71.167,-25.085
0.172,-0.651,0.845,-102.112,-68.420,-29.907
0.125,-0.682,0.935,-104.187,-58.716,-29.785
0.061,-0.671,1.069,-110.718,-40.955,-26.550
0.067,-0.673,1.200,-110.779,-16.602,-19.165
0.085,-0.656,1.292,-100.220,2.380,-8.179
0.208,-0.634,1.336,-86.304,11.841,-0.610
0.232,-0.591,1.285,-68.726,0.977,5.371
0.153,-0.680,1.146,-49.683,-16.724,10.010
0.155,-0.712,1.033,-38.086,-23.499,5.615
0.176,-0.685,0.992,-35.461,-23.560,0.671
0.147,-0.652,0.974,-39.368,-22.827,-1.282
0.085,-0.661,0.955,-45.044,-18.250,-0.916
0.054,-0.678,0.952,-50.842,-1.587,3.357
0.098,-0.675,0.965,-54.932,22.949,9.644
0.177,-0.652,0.981,-54.932,40.222,14.771
0.258,-0.631,0.982,-50.415,41.504,16.296
0.305,-0.616,0.969,-42.114,25.024,12.512
0.279,-0.609,0.945,-33.142,-2.502,5.554
0.212,-0.617,0.903,-26.978,-29.602,-0.916
0.152,-0.619,0.875,-25.208,-43.274,-5.005
0.127,-0.632,0.853,-27.466,-42.786,-6.348
0.131,-0.625,0.849,-32.043,-31.494,-5.676
0.144,-0.620,0.859,-36.255,-17.822,-3.418
0.151,-0.617,0.866,-39.001,-7.568,0.610
0.171,-0.600,0.901,-40.283,0.793,4.456
0.206,-0.573,0.949,-40.039,7.324,6.592
0.232,-0.545,0.979,-35.339,10.742,5.798
0.251,-0.539,0.969,-27.161,6.409,3.540
0.221,-0.541,0.928,-19.714,-2.869,0.427
0.191,-0.567,0.889,-16.479,-10.925,-2.075
0.182,-0.568,0.880,-17.578,-13.977,-3.540
0.182,-0.563,0.906,-20.447,-13.367,-5.371
0.150,-0.559,0.912,-22.705,-12.756,-6.897
0.125,-0.572,0.913,-23.926,-10.071,-5.981
0.131,-0.567,0.924,-23.621,-3.967,-3.662
0.148,-0.570,2.123,47.485,2.808,-14.832
0.119,-0.593,2.429,53.467,5.615,-20.142
0.056,-0.575,2.701,67.017,1.770,-22.095
-0.011,-0.594,2.942,91.125,-4.639,-20.142
-0.106,-0.595,3.077,120.178,-7.812,-15.198
-0.255,-0.633,3.042,154.419,0.671,-6.958
-0.310,-0.635,2.838,194.885,25.269,5.371
-0.287,-0.565,2.541,234.436,47.119,24.841
-0.250,-0.528,2.167,259.521,62.378,41.138
-0.085,-0.480,1.988,269.958,73.120,46.326
0.033,-0.389,1.907,269.104,63.110,42.053
0.038,-0.326,1.932,257.263,40.710,30.457
-0.153,-0.269,1.869,249.268,19.775,18.433
-0.263,-0.194,1.800,255.188,18.860,18.433
-0.358,-0.108,1.556,270.081,35.400,31.372
-0.272,0.033,1.237,292.175,63.782,50.476
-0.089,0.084,0.867,315.186,89.478,73.181
0.213,0.233,0.547,327.271,102.539,78.735
0.409,0.378,0.259,330.505,91.797,69.519
0.468,0.426,0.036,326.843,67.871,54.810
0.567,0.454,-0.156,320.435,43.396,40.405
0.546,0.479,-0.376,312.622,17.456,25.940
0.490,0.473,-0.636,306.030,-5.249,14.771
0.451,0.477,-0.888,295.227,-14.954,10.925
